{
    "resourceType": "Bundle",
    "type": "transaction",
    "entry": [
      {
        "fullUrl": "urn:uuid:73d409f5-cbd4-3f94-a76d-aca9be082225",
        "resource": {
          "resourceType": "MessageHeader",
          "id": "73d409f5-cbd4-3f94-a76d-aca9be082225",
          "source": {
            "source": {
              "name": "MedCenter"
            }
          },
          "destination": [
            {
              "destination": [
                {
                  "name": "MedCenter"
                }
              ]
            }
          ],
          "meta": {
            "tag": [
              {
                "meta": {
                  "tag": [
                    {
                      "code": "2.3",
                      "system": "http://terminology.hl7.org/CodeSystem/v2-0103"
                    }
                  ]
                }
              }
            ]
          }
        },
        "request": {
          "method": "PUT",
          "url": "MessageHeader/73d409f5-cbd4-3f94-a76d-aca9be082225"
        }
      },
      {
        "fullUrl": "urn:uuid:272b3e0c-36e3-3b8b-809e-aa6b4cee0461",
        "resource": {
          "resourceType": "Patient",
          "id": "272b3e0c-36e3-3b8b-809e-aa6b4cee0461",
          "identifier": [
            {
              "value": "20891312"
            },
            {
              "type": {
                "coding": [
                  {
                    "system": "http://terminology.hl7.org/CodeSystem/v2-0203",
                    "code": "SS"
                  }
                ]
              },
              "system": "http://hl7.org/fhir/sid/us-ssn",
              "value": "123-45-7890"
            }
          ],
          "name": [
            {
              "family": "APPLESEED",
              "given": [
                "JOHN",
                "A"
              ],
              "prefix": [
                "MR."
              ]
            }
          ],
          "birthDate": "1966-12-01",
          "gender": "male",
          "address": [
            {
              "line": [
                "505 S. HAMILTON AVE"
              ],
              "city": "MADISON",
              "state": "WI",
              "postalCode": "53505",
              "country": "US"
            },
            {
              "district": "DN"
            }
          ],
          "telecom": [
            {
              "value": "(608)123-4567",
              "use": "home"
            },
            {
              "value": "(608)123-5678",
              "use": "work"
            }
          ],
          "maritalStatus": {
            "coding": [
              {
                "code": "S",
                "display": "Never Married",
                "system": "http://terminology.hl7.org/CodeSystem/v3-MaritalStatus"
              }
            ]
          }
        },
        "request": {
          "method": "PUT",
          "url": "Patient/272b3e0c-36e3-3b8b-809e-aa6b4cee0461"
        }
      },
      {
        "fullUrl": "urn:uuid:e118c406-6bd2-3307-a2cd-6c223bb147bb",
        "resource": {
          "resourceType": "Encounter",
          "id": "e118c406-6bd2-3307-a2cd-6c223bb147bb",
          "status": "unknown",
          "location": [
            {
              "status": "active"
            }
          ],
          "participant": [
            {
              "type": [
                {
                  "coding": [
                    {
                      "code": "ATND",
                      "system": "http://terminology.hl7.org/CodeSystem/v3-ParticipationType",
                      "display": "attender"
                    }
                  ]
                }
              ]
            }
          ],
          "identifier": [
            {
              "value": "610613",
              "type": {
                "coding": [
                  {
                    "system": "http://terminology.hl7.org/CodeSystem/v2-0203"
                  }
                ],
                "text": "visit number"
              }
            }
          ],
          "subject": {
            "reference": "Patient/272b3e0c-36e3-3b8b-809e-aa6b4cee0461"
          },
          "diagnosis": [
            {
              "condition": {
                "reference": "Condition/9a7b5d47-5856-3fa7-a646-d51b5832b6eb"
              }
            },
            {
              "condition": {
                "reference": "Condition/7d37ef13-32fc-3111-80ff-0a701c780c58"
              }
            }
          ]
        },
        "request": {
          "method": "PUT",
          "url": "Encounter/e118c406-6bd2-3307-a2cd-6c223bb147bb"
        }
      },
      {
        "fullUrl": "urn:uuid:bf17f8a9-9470-3f81-bdfd-1e96c57c429b",
        "resource": {
          "resourceType": "ServiceRequest",
          "id": "bf17f8a9-9470-3f81-bdfd-1e96c57c429b",
          "intent": "order",
          "identifier": [
            {
              "value": "987654",
              "type": {
                "coding": [
                  {
                    "code": "PLAC",
                    "system": "http://terminology.hl7.org/CodeSystem/v2-0203"
                  }
                ]
              }
            },
            {
              "value": "76543",
              "type": {
                "coding": [
                  {
                    "code": "FILL",
                    "system": "http://terminology.hl7.org/CodeSystem/v2-0203"
                  }
                ]
              }
            },
            {
              "type": {
                "coding": [
                  {
                    "code": "FILL",
                    "system": "http://terminology.hl7.org/CodeSystem/v2-0203"
                  }
                ]
              }
            },
            {
              "value": "363463"
            },
            {
              "value": "1858"
            }
          ],
          "authoredOn": "2014-04-18T17:33:14.000Z",
          "subject": {
            "reference": "Patient/272b3e0c-36e3-3b8b-809e-aa6b4cee0461"
          },
          "code": {
            "coding": [
              {
                "code": "73610",
                "display": "X-RAY ANKLE 3+ VW"
              },
              {
                "display": "X-RAY ANKLE "
              }
            ]
          },
          "reasonReference": [
            {
              "reference": "Condition/9a7b5d47-5856-3fa7-a646-d51b5832b6eb"
            },
            {
              "reference": "Condition/7d37ef13-32fc-3111-80ff-0a701c780c58"
            }
          ]
        },
        "request": {
          "method": "PUT",
          "url": "ServiceRequest/bf17f8a9-9470-3f81-bdfd-1e96c57c429b"
        }
      },
      {
        "fullUrl": "urn:uuid:b0048a52-a213-3235-9807-af26b15e176f",
        "resource": {
          "resourceType": "Provenance",
          "id": "b0048a52-a213-3235-9807-af26b15e176f",
          "agent": [
            {
              "type": {
                "coding": [
                  {
                    "code": "enterer",
                    "system": "http://terminology.hl7.org/CodeSystem/provenance-participant-type"
                  }
                ]
              }
            },
            {
              "type": {
                "coding": [
                  {
                    "code": "author",
                    "system": "http://terminology.hl7.org/CodeSystem/provenance-participant-type"
                  }
                ]
              }
            }
          ],
          "recorded": "2014-04-18T17:33:14.000Z",
          "activity": {
            "coding": [
              {
                "code": "CREATE",
                "system": "http://terminology.hl7.org/CodeSystem/v3-DataOperation"
              }
            ]
          },
          "occurredDateTime": "2014-04-18T17:33:14.000Z",
          "target": [
            {
              "reference": "MessageHeader/73d409f5-cbd4-3f94-a76d-aca9be082225"
            }
          ]
        },
        "request": {
          "method": "PUT",
          "url": "Provenance/b0048a52-a213-3235-9807-af26b15e176f"
        }
      },
      {
        "fullUrl": "urn:uuid:0d519d35-01bd-33af-a36f-e1f199d22350",
        "resource": {
          "resourceType": "Task",
          "id": "0d519d35-01bd-33af-a36f-e1f199d22350",
          "status": "cancelled",
          "intent": "order",
          "code": {
            "coding": [
              {
                "code": "fulfill",
                "system": "http://hl7.org/fhir/CodeSystem/task-code"
              }
            ]
          },
          "executionPeriod": {
            "start": "2014-04-18T17:00:14.000Z"
          },
          "authoredOn": "2014-04-18T17:33:14.000Z",
          "lastModified": "2014-04-18T17:33:14.000Z",
          "for": {
            "reference": "Patient/272b3e0c-36e3-3b8b-809e-aa6b4cee0461"
          },
          "reasonReference": {
            "reference": "Condition/4cfe8d6d-3fc8-3e41-b921-f204be18db31"
          },
          "encounter": {
            "reference": "Encounter/e118c406-6bd2-3307-a2cd-6c223bb147bb"
          },
          "basedOn": [
            {
              "reference": "ServiceRequest/bf17f8a9-9470-3f81-bdfd-1e96c57c429b"
            }
          ]
        },
        "request": {
          "method": "PUT",
          "url": "Task/0d519d35-01bd-33af-a36f-e1f199d22350"
        }
      },
      {
        "fullUrl": "urn:uuid:9a7b5d47-5856-3fa7-a646-d51b5832b6eb",
        "resource": {
          "resourceType": "Condition",
          "id": "9a7b5d47-5856-3fa7-a646-d51b5832b6eb",
          "code": {
            "coding": [
              {
                "code": "S82",
                "display": "ANKLE FRACTURE",
                "system": "I10"
              }
            ],
            "text": "ANKLE FRACTURE"
          },
          "subject": {
            "reference": "Patient/272b3e0c-36e3-3b8b-809e-aa6b4cee0461"
          }
        },
        "request": {
          "method": "PUT",
          "url": "Condition/9a7b5d47-5856-3fa7-a646-d51b5832b6eb"
        }
      },
      {
        "fullUrl": "urn:uuid:7d37ef13-32fc-3111-80ff-0a701c780c58",
        "resource": {
          "resourceType": "Condition",
          "id": "7d37ef13-32fc-3111-80ff-0a701c780c58",
          "code": {
            "coding": [
              {
                "code": "S83",
                "display": "ANKLE FRACTURE",
                "system": "I10"
              }
            ],
            "text": "ANKLE FRACTURE"
          },
          "subject": {
            "reference": "Patient/272b3e0c-36e3-3b8b-809e-aa6b4cee0461"
          }
        },
        "request": {
          "method": "PUT",
          "url": "Condition/7d37ef13-32fc-3111-80ff-0a701c780c58"
        }
      }
    ]
  }