{
    "resourceType": "Bundle",
    "type": "transaction",
    "entry": [
      {
        "fullUrl": "urn:uuid:64bac34e-e611-3549-848b-89416176aa0b",
        "resource": {
          "resourceType": "Patient",
          "identifier": [
            {
              "value": "10006579",
              "type": {
                "coding": [
                  {
                    "code": "MR",
                    "system": "http://terminology.hl7.org/CodeSystem/v2-0203"
                  }
                ]
              }
            },
            {
              "type": {
                "coding": [
                  {
                    "system": "http://terminology.hl7.org/CodeSystem/v2-0203",
                    "code": "SS"
                  }
                ]
              },
              "system": "http://hl7.org/fhir/sid/us-ssn",
              "value": "123121234"
            }
          ],
          "name": [
            {
              "family": "DUCK",
              "given": [
                "DONALD",
                "D"
              ]
            }
          ],
          "birthDate": "1924-10-10",
          "gender": "male",
          "address": [
            {
              "line": [
                "111 DUCK ST"
              ],
              "city": "FOWL",
              "state": "CA",
              "postalCode": "999990000",
              "type": "postal"
            },
            {
              "district": "1"
            }
          ],
          "telecom": [
            {
              "value": "8885551212",
              "use": "home"
            },
            {
              "value": "8885551212",
              "use": "work"
            }
          ],
          "communication": [
            {
              "preferred": true
            }
          ]
        },
        "request": {
          "method": "POST",
          "url": "urn:uuid:64bac34e-e611-3549-848b-89416176aa0b"
        }
      },
      {
        "fullUrl": "urn:uuid:4cfe8d6d-3fc8-3e41-b921-f204be18db31",
        "resource": {
          "resourceType": "Encounter",
          "status": "unknown",
          "location": [
            {
              "status": "active"
            }
          ],
          "subject": {
            "reference": "urn:uuid:64bac34e-e611-3549-848b-89416176aa0b"
          }
        },
        "request": {
          "method": "POST",
          "url": "urn:uuid:4cfe8d6d-3fc8-3e41-b921-f204be18db31"
        }
      },
      {
        "fullUrl": "urn:uuid:4d173b01-1e9c-3793-b1af-d337b40fea98",
        "resource": {
          "resourceType": "ServiceRequest",
          "intent": "order",
          "identifier": [
            {
              "value": "88502218",
              "type": {
                "coding": [
                  {
                    "code": "PLAC",
                    "system": "http://terminology.hl7.org/CodeSystem/v2-0203"
                  }
                ]
              }
            },
            {
              "value": "82503246",
              "type": {
                "coding": [
                  {
                    "code": "FILL",
                    "system": "http://terminology.hl7.org/CodeSystem/v2-0203"
                  }
                ]
              }
            },
            {
              "type": {
                "coding": [
                  {
                    "code": "FILL",
                    "system": "http://terminology.hl7.org/CodeSystem/v2-0203"
                  }
                ]
              }
            },
            {
              "value": "88502218"
            },
            {
              "value": "82503246"
            }
          ],
          "authoredOn": "2014-10-06T09:29:00.000Z",
          "subject": {
            "reference": "urn:uuid:64bac34e-e611-3549-848b-89416176aa0b"
          },
          "occurrenceDateTime": "2014-10-06T06:44:00.000Z",
          "code": {
            "coding": [
              {
                "code": "24317-0",
                "display": "Hemogram and platelet count, automated",
                "system": "LN"
              }
            ]
          }
        },
        "request": {
          "method": "POST",
          "url": "urn:uuid:4d173b01-1e9c-3793-b1af-d337b40fea98"
        }
      },
      {
        "fullUrl": "urn:uuid:93dfb7d7-6100-370b-8f05-81d8a9d8fbc9",
        "resource": {
          "resourceType": "Task",
          "status": "cancelled",
          "intent": "order",
          "code": {
            "coding": [
              {
                "code": "fulfill",
                "system": "http://hl7.org/fhir/CodeSystem/task-code"
              }
            ]
          },
          "authoredOn": "2014-10-06T09:29:00.000Z",
          "lastModified": "2014-10-06T09:29:00.000Z",
          "for": {
            "reference": "urn:uuid:64bac34e-e611-3549-848b-89416176aa0b"
          },
          "encounter": {
            "reference": "urn:uuid:4cfe8d6d-3fc8-3e41-b921-f204be18db31"
          },
          "basedOn": [
            {
              "reference": "urn:uuid:4d173b01-1e9c-3793-b1af-d337b40fea98"
            }
          ]
        },
        "request": {
          "method": "POST",
          "url": "urn:uuid:93dfb7d7-6100-370b-8f05-81d8a9d8fbc9"
        }
      }
    ]
  }