{
  "resourceType": "Bundle",
  "type": "transaction",
  "entry": [
    {
      "fullUrl": "urn:uuid:64bac34e-e611-3549-848b-89416176aa0b",
      "resource": {
        "resourceType": "Patient",
        "id": "64bac34e-e611-3549-848b-89416176aa0b",
        "identifier": [
          {
            "value": "10006579",
            "type": {
              "coding": [
                {
                  "code": "MR",
                  "system": "http://terminology.hl7.org/CodeSystem/v2-0203"
                }
              ]
            }
          },
          {
            "type": {
              "coding": [
                {
                  "system": "http://terminology.hl7.org/CodeSystem/v2-0203",
                  "code": "SS"
                }
              ]
            },
            "system": "http://hl7.org/fhir/sid/us-ssn",
            "value": "123121234"
          }
        ],
        "name": [
          {
            "family": "DUCK",
            "given": [
              "DONALD",
              "D"
            ]
          }
        ],
        "birthDate": "1924-10-10",
        "gender": "male",
        "address": [
          {
            "line": [
              "111 DUCK ST"
            ],
            "city": "FOWL",
            "state": "CA",
            "postalCode": "999990000",
            "type": "postal"
          },
          {
            "district": "1"
          }
        ],
        "telecom": [
          {
            "value": "8885551212",
            "use": "home"
          },
          {
            "value": "8885551212",
            "use": "work"
          }
        ],
        "communication": [
          {
            "preferred": true
          }
        ]
      },
      "request": {
        "method": "POST",
        "url": "Patient/64bac34e-e611-3549-848b-89416176aa0b"
      }
    },
    {
      "fullUrl": "urn:uuid:14693cea-02b9-3743-9010-fa549107ea68",
      "resource": {
        "resourceType": "Encounter",
        "id": "14693cea-02b9-3743-9010-fa549107ea68",
        "class": {
          "code": "IMP",
          "display": "inpatient encounter",
          "system": "http://terminology.hl7.org/CodeSystem/v3-ActCode"
        },
        "status": "unknown",
        "location": [
          {
            "status": "active"
          }
        ],
        "hospitalization": {
          "admitSource": {
            "coding": [
              {
                "code": "1"
              }
            ]
          }
        },
        "participant": [
          {
            "type": [
              {
                "coding": [
                  {
                    "code": "ATND",
                    "system": "http://terminology.hl7.org/CodeSystem/v3-ParticipationType",
                    "display": "attender"
                  }
                ]
              }
            ]
          },
          {
            "type": [
              {
                "coding": [
                  {
                    "code": "ADM",
                    "system": "http://terminology.hl7.org/CodeSystem/v3-ParticipationType"
                  }
                ],
                "text": "admitter"
              }
            ]
          }
        ],
        "serviceType": {
          "coding": [
            {
              "code": "01"
            }
          ]
        },
        "identifier": [
          {
            "value": "40007716",
            "type": {
              "coding": [
                {
                  "system": "http://terminology.hl7.org/CodeSystem/v2-0203"
                }
              ],
              "text": "visit number"
            }
          },
          {
            "value": " "
          }
        ],
        "period": {
          "start": "2005-01-10T04:52:53.000Z"
        },
        "subject": {
          "reference": "Patient/64bac34e-e611-3549-848b-89416176aa0b"
        }
      },
      "request": {
        "method": "POST",
        "url": "Encounter/14693cea-02b9-3743-9010-fa549107ea68"
      }
    },
    {
      "fullUrl": "urn:uuid:4d173b01-1e9c-3793-b1af-d337b40fea98",
      "resource": {
        "resourceType": "ServiceRequest",
        "id": "4d173b01-1e9c-3793-b1af-d337b40fea98",
        "intent": "order",
        "identifier": [
          {
            "value": "88502218",
            "type": {
              "coding": [
                {
                  "code": "PLAC",
                  "system": "http://terminology.hl7.org/CodeSystem/v2-0203"
                }
              ]
            }
          },
          {
            "value": "82503246",
            "type": {
              "coding": [
                {
                  "code": "FILL",
                  "system": "http://terminology.hl7.org/CodeSystem/v2-0203"
                }
              ]
            }
          },
          {
            "type": {
              "coding": [
                {
                  "code": "FILL",
                  "system": "http://terminology.hl7.org/CodeSystem/v2-0203"
                }
              ]
            }
          },
          {
            "value": "88502218"
          },
          {
            "value": "82503246"
          }
        ],
        "authoredOn": "2014-10-06T09:29:00.000Z",
        "subject": {
          "reference": "Patient/64bac34e-e611-3549-848b-89416176aa0b"
        },
        "occurrenceDateTime": "2014-10-06T06:44:00.000Z",
        "code": {
          "coding": [
            {
              "code": "24317-0",
              "display": "Hemogram and platelet count, automated",
              "system": "LN"
            }
          ]
        }
      },
      "request": {
        "method": "POST",
        "url": "ServiceRequest/4d173b01-1e9c-3793-b1af-d337b40fea98"
      }
    },
    {
      "fullUrl": "urn:uuid:1df118dc-6efb-37c1-84db-13bfc8b915f4",
      "resource": {
        "resourceType": "Provenance",
        "id": "1df118dc-6efb-37c1-84db-13bfc8b915f4",
        "agent": [
          {
            "type": {
              "coding": [
                {
                  "code": "enterer",
                  "system": "http://terminology.hl7.org/CodeSystem/provenance-participant-type"
                }
              ]
            }
          }
        ],
        "recorded": "2014-10-06T09:29:00.000Z",
        "activity": {
          "coding": [
            {
              "code": "CREATE",
              "system": "http://terminology.hl7.org/CodeSystem/v3-DataOperation"
            }
          ]
        },
        "occurredDateTime": "2014-10-06T09:29:00.000Z",
        "target": [
          {
            "reference": "ServiceRequest/4d173b01-1e9c-3793-b1af-d337b40fea98"
          }
        ]
      },
      "request": {
        "method": "POST",
        "url": "Provenance/1df118dc-6efb-37c1-84db-13bfc8b915f4"
      }
    }
  ]
}